# T(K)          a da/dT(-6/K)          b db/dT(-6/K)          c dc/dT(-6/K)
   0.0   2.495827    0.049592   2.495827    0.049592   2.495827    0.049592
  10.0   2.495828    0.022830   2.495828    0.022830   2.495828    0.022830
  20.0   2.495830    0.248873   2.495830    0.248873   2.495830    0.248873
  30.0   2.495843    0.839889   2.495843    0.839889   2.495843    0.839889
  40.0   2.495876    1.842249   2.495876    1.842249   2.495876    1.842249
  50.0   2.495937    3.067314   2.495937    3.067314   2.495937    3.067314
  60.0   2.496029    4.330531   2.496029    4.330531   2.496029    4.330531
  70.0   2.496152    5.521180   2.496152    5.521180   2.496152    5.521180
  80.0   2.496304    6.590257   2.496304    6.590257   2.496304    6.590257
  90.0   2.496480    7.525631   2.496480    7.525631   2.496480    7.525631
 100.0   2.496679    8.333375   2.496679    8.333375   2.496679    8.333375
 110.0   2.496895    9.027053   2.496895    9.027053   2.496895    9.027053
 120.0   2.497128    9.622220   2.497128    9.622220   2.497128    9.622220
 130.0   2.497375   10.133846   2.497375   10.133846   2.497375   10.133846
 140.0   2.497634   10.575278   2.497634   10.575278   2.497634   10.575278
 150.0   2.497903   10.957963   2.497903   10.957963   2.497903   10.957963
 160.0   2.498181   11.291515   2.498181   11.291515   2.498181   11.291515
 170.0   2.498467   11.583917   2.498467   11.583917   2.498467   11.583917
 180.0   2.498760   11.841768   2.498760   11.841768   2.498760   11.841768
 190.0   2.499058   12.070509   2.499058   12.070509   2.499058   12.070509
 200.0   2.499363   12.274630   2.499363   12.274630   2.499363   12.274630
 210.0   2.499672   12.457847   2.499672   12.457847   2.499672   12.457847
 220.0   2.499985   12.623238   2.499985   12.623238   2.499985   12.623238
 230.0   2.500303   12.773369   2.500303   12.773369   2.500303   12.773369
 240.0   2.500624   12.910381   2.500624   12.910381   2.500624   12.910381
 250.0   2.500948   13.036072   2.500948   13.036072   2.500948   13.036072
 260.0   2.501276   13.151958   2.501276   13.151958   2.501276   13.151958
 270.0   2.501606   13.259319   2.501606   13.259319   2.501606   13.259319
 280.0   2.501939   13.359245   2.501939   13.359245   2.501939   13.359245
 290.0   2.502275   13.452665   2.502275   13.452665   2.502275   13.452665
 300.0   2.502613   13.540375   2.502613   13.540375   2.502613   13.540375
 310.0   2.502952   13.623060   2.502952   13.623060   2.502952   13.623060
 320.0   2.503294   13.701311   2.503294   13.701311   2.503294   13.701311
 330.0   2.503638   13.775640   2.503638   13.775640   2.503638   13.775640
 340.0   2.503984   13.846493   2.503984   13.846493   2.503984   13.846493
 350.0   2.504332   13.914258   2.504332   13.914258   2.504332   13.914258
 360.0   2.504681   13.979276   2.504681   13.979276   2.504681   13.979276
 370.0   2.505032   14.041847   2.505032   14.041847   2.505032   14.041847
 380.0   2.505385   14.102233   2.505385   14.102233   2.505385   14.102233
 390.0   2.505739   14.160668   2.505739   14.160668   2.505739   14.160668
 400.0   2.506094   14.217358   2.506094   14.217358   2.506094   14.217358
 410.0   2.506451   14.272488   2.506451   14.272488   2.506451   14.272488
 420.0   2.506810   14.326221   2.506810   14.326221   2.506810   14.326221
 430.0   2.507170   14.378704   2.507170   14.378704   2.507170   14.378704
 440.0   2.507531   14.430068   2.507531   14.430068   2.507531   14.430068
 450.0   2.507893   14.480432   2.507893   14.480432   2.507893   14.480432
 460.0   2.508257   14.529901   2.508257   14.529901   2.508257   14.529901
 470.0   2.508622   14.578573   2.508622   14.578573   2.508622   14.578573
 480.0   2.508988   14.626535   2.508988   14.626535   2.508988   14.626535
 490.0   2.509356   14.673864   2.509356   14.673864   2.509356   14.673864
 500.0   2.509725   14.720635   2.509725   14.720635   2.509725   14.720635
 510.0   2.510095   14.766912   2.510095   14.766912   2.510095   14.766912
 520.0   2.510466   14.812756   2.510466   14.812756   2.510466   14.812756
 530.0   2.510839   14.858222   2.510839   14.858222   2.510839   14.858222
 540.0   2.511212   14.903360   2.511212   14.903360   2.511212   14.903360
 550.0   2.511587   14.948217   2.511587   14.948217   2.511587   14.948217
 560.0   2.511963   14.992837   2.511963   14.992837   2.511963   14.992837
 570.0   2.512340   15.037259   2.512340   15.037259   2.512340   15.037259
 580.0   2.512719   15.081521   2.512719   15.081521   2.512719   15.081521
 590.0   2.513098   15.125656   2.513098   15.125656   2.513098   15.125656
 600.0   2.513479   15.169697   2.513479   15.169697   2.513479   15.169697
 610.0   2.513861   15.213674   2.513861   15.213674   2.513861   15.213674
 620.0   2.514244   15.257615   2.514244   15.257615   2.514244   15.257615
 630.0   2.514628   15.301547   2.514628   15.301547   2.514628   15.301547
 640.0   2.515013   15.345493   2.515013   15.345493   2.515013   15.345493
 650.0   2.515400   15.389479   2.515400   15.389479   2.515400   15.389479
 660.0   2.515788   15.433525   2.515788   15.433525   2.515788   15.433525
 670.0   2.516177   15.477652   2.516177   15.477652   2.516177   15.477652
 680.0   2.516567   15.521881   2.516567   15.521881   2.516567   15.521881
 690.0   2.516958   15.566231   2.516958   15.566231   2.516958   15.566231
 700.0   2.517350   15.610720   2.517350   15.610720   2.517350   15.610720
 710.0   2.517744   15.655365   2.517744   15.655365   2.517744   15.655365
 720.0   2.518138   15.700183   2.518138   15.700183   2.518138   15.700183
 730.0   2.518534   15.745190   2.518534   15.745190   2.518534   15.745190
 740.0   2.518932   15.790402   2.518932   15.790402   2.518932   15.790402
 750.0   2.519330   15.835833   2.519330   15.835833   2.519330   15.835833
 760.0   2.519729   15.881498   2.519729   15.881498   2.519729   15.881498
 770.0   2.520130   15.927411   2.520130   15.927411   2.520130   15.927411
 780.0   2.520532   15.973586   2.520532   15.973586   2.520532   15.973586
 790.0   2.520936   16.020036   2.520936   16.020036   2.520936   16.020036
 800.0   2.521340   16.066775   2.521340   16.066775   2.521340   16.066775
 810.0   2.521746   16.113815   2.521746   16.113815   2.521746   16.113815
 820.0   2.522153   16.161169   2.522153   16.161169   2.522153   16.161169
 830.0   2.522561   16.208849   2.522561   16.208849   2.522561   16.208849
 840.0   2.522970   16.256868   2.522970   16.256868   2.522970   16.256868
 850.0   2.523381   16.305239   2.523381   16.305239   2.523381   16.305239
 860.0   2.523793   16.353972   2.523793   16.353972   2.523793   16.353972
 870.0   2.524207   16.403080   2.524207   16.403080   2.524207   16.403080
 880.0   2.524621   16.452575   2.524621   16.452575   2.524621   16.452575
 890.0   2.525037   16.502469   2.525037   16.502469   2.525037   16.502469
 900.0   2.525455   16.552773   2.525455   16.552773   2.525455   16.552773
 910.0   2.525874   16.603500   2.525874   16.603500   2.525874   16.603500
 920.0   2.526294   16.654661   2.526294   16.654661   2.526294   16.654661
 930.0   2.526715   16.706269   2.526715   16.706269   2.526715   16.706269
 940.0   2.527138   16.758335   2.527138   16.758335   2.527138   16.758335
 950.0   2.527562   16.810871   2.527562   16.810871   2.527562   16.810871
 960.0   2.527988   16.863889   2.527988   16.863889   2.527988   16.863889
 970.0   2.528415   16.917411   2.528415   16.917411   2.528415   16.917411
 980.0   2.528843   16.971442   2.528843   16.971442   2.528843   16.971442
 990.0   2.529273   17.025826   2.529273   17.025826   2.529273   17.025826
1000.0   2.529704   17.081546   2.529704   17.081546   2.529704   17.081546
1010.0   2.530137   17.130058   2.530137   17.130058   2.530137   17.130058
1020.0   2.530571   17.170681   2.530571   17.170681   2.530571   17.170681
1030.0   2.531006   17.212011   2.531006   17.212011   2.531006   17.212011
1040.0   2.531442   17.253533   2.531442   17.253533   2.531442   17.253533
1050.0   2.531880   17.295374   2.531880   17.295374   2.531880   17.295374
1060.0   2.532318   17.337532   2.532318   17.337532   2.532318   17.337532
1070.0   2.532758   17.380005   2.532758   17.380005   2.532758   17.380005
1080.0   2.533199   17.422802   2.533199   17.422802   2.533199   17.422802
1090.0   2.533641   17.465930   2.533641   17.465930   2.533641   17.465930
1100.0   2.534084   17.509397   2.534084   17.509397   2.534084   17.509397
1110.0   2.534528   17.553209   2.534528   17.553209   2.534528   17.553209
1120.0   2.534973   17.597372   2.534973   17.597372   2.534973   17.597372
1130.0   2.535420   17.641895   2.535420   17.641895   2.535420   17.641895
1140.0   2.535868   17.686784   2.535868   17.686784   2.535868   17.686784
1150.0   2.536317   17.732046   2.536317   17.732046   2.536317   17.732046
1160.0   2.536768   17.777689   2.536768   17.777689   2.536768   17.777689
1170.0   2.537219   17.823719   2.537219   17.823719   2.537219   17.823719
1180.0   2.537672   17.870145   2.537672   17.870145   2.537672   17.870145
1190.0   2.538126   17.916974   2.538126   17.916974   2.538126   17.916974
1200.0   2.538582   17.964213   2.538582   17.964213   2.538582   17.964213
1210.0   2.539038   18.011871   2.539038   18.011871   2.539038   18.011871
1220.0   2.539496   18.059955   2.539496   18.059955   2.539496   18.059955
1230.0   2.539955   18.108472   2.539955   18.108472   2.539955   18.108472
1240.0   2.540416   18.157432   2.540416   18.157432   2.540416   18.157432
1250.0   2.540878   18.206842   2.540878   18.206842   2.540878   18.206842
1260.0   2.541341   18.256711   2.541341   18.256711   2.541341   18.256711
1270.0   2.541806   18.307048   2.541806   18.307048   2.541806   18.307048
1280.0   2.542272   18.357860   2.542272   18.357860   2.542272   18.357860
1290.0   2.542739   18.409158   2.542739   18.409158   2.542739   18.409158
1300.0   2.543208   18.460949   2.543208   18.460949   2.543208   18.460949
1310.0   2.543678   18.513243   2.543678   18.513243   2.543678   18.513243
1320.0   2.544150   18.566050   2.544150   18.566050   2.544150   18.566050
1330.0   2.544623   18.619378   2.544623   18.619378   2.544623   18.619378
1340.0   2.545098   18.673238   2.545098   18.673238   2.545098   18.673238
1350.0   2.545574   18.727640   2.545574   18.727640   2.545574   18.727640
1360.0   2.546051   18.782594   2.546051   18.782594   2.546051   18.782594
1370.0   2.546530   18.838110   2.546530   18.838110   2.546530   18.838110
1380.0   2.547011   18.894199   2.547011   18.894199   2.547011   18.894199
1390.0   2.547493   18.950872   2.547493   18.950872   2.547493   18.950872
1400.0   2.547976   19.008139   2.547976   19.008139   2.547976   19.008139
1410.0   2.548461   19.066012   2.548461   19.066012   2.548461   19.066012
1420.0   2.548948   19.124503   2.548948   19.124503   2.548948   19.124503
1430.0   2.549436   19.183624   2.549436   19.183624   2.549436   19.183624
1440.0   2.549926   19.243386   2.549926   19.243386   2.549926   19.243386
1450.0   2.550418   19.303803   2.550418   19.303803   2.550418   19.303803
1460.0   2.550911   19.364886   2.550911   19.364886   2.550911   19.364886
1470.0   2.551405   19.426649   2.551405   19.426649   2.551405   19.426649
1480.0   2.551902   19.489106   2.551902   19.489106   2.551902   19.489106
1490.0   2.552400   19.552269   2.552400   19.552269   2.552400   19.552269
1500.0   2.552900   19.616154   2.552900   19.616154   2.552900   19.616154
1510.0   2.553402   19.680775   2.553402   19.680775   2.553402   19.680775
1520.0   2.553905   19.746145   2.553905   19.746145   2.553905   19.746145
1530.0   2.554410   19.812282   2.554410   19.812282   2.554410   19.812282
1540.0   2.554917   19.879199   2.554917   19.879199   2.554917   19.879199
1550.0   2.555426   19.946914   2.555426   19.946914   2.555426   19.946914
1560.0   2.555937   20.015443   2.555937   20.015443   2.555937   20.015443
1570.0   2.556449   20.084802   2.556449   20.084802   2.556449   20.084802
1580.0   2.556964   20.155008   2.556964   20.155008   2.556964   20.155008
1590.0   2.557480   20.226082   2.557480   20.226082   2.557480   20.226082
1600.0   2.557998   20.298035   2.557998   20.298035   2.557998   20.298035
